U[V]	I[nA]	Uret=2.0V
 0.00	18.870
 0.05	13.390
 0.10	10.075
 0.15	 8.035
 0.20	 6.835
 0.25	 6.240
 0.30	 6.065
 0.35	 6.180
 0.40	 6.505
 0.45	 6.985
 0.50	 7.585
 0.55	 8.300
 0.60	 9.105
 0.65	 9.980
 0.70	10.925
 0.75	11.930
 0.80	12.975
 0.85	14.030
 0.90	15.145
 0.95	16.305
 1.00	17.495
 1.05	18.675
 1.10	19.890
 1.15	21.130
 1.20	22.375
 1.25	23.615
 1.30	24.835
 1.35	26.025
 1.40	27.165
 1.45	28.220
 1.50	29.225
 1.55	30.150
 1.60	30.990
 1.65	31.740
 1.70	32.380
 1.75	32.920
 1.80	33.345
 1.85	33.655
 1.90	33.855
 1.95	33.940
 2.00	33.925
 2.05	33.820
 2.10	33.625
 2.15	33.325
 2.20	32.935
 2.25	32.450
 2.30	31.885
 2.35	31.220
 2.40	30.500
 2.45	29.735
 2.50	28.890
 2.55	27.980
 2.60	27.000
 2.65	25.985
 2.70	24.930
 2.75	23.860
 2.80	22.770
 2.85	21.720
 2.90	20.665
 2.95	19.615
 3.00	18.615
 3.05	17.695
 3.10	16.825
 3.15	16.005
 3.20	15.255
 3.25	14.575
 3.30	13.975
 3.35	13.465
 3.40	13.035
 3.45	12.700
 3.50	12.445
 3.55	12.275
 3.60	12.180
 3.65	12.170
 3.70	12.230
 3.75	12.355
 3.80	12.530
 3.85	12.760
 3.90	13.040
 3.95	13.380
 4.00	13.745
 4.05	14.155
 4.10	14.605
 4.15	15.090
 4.20	15.610
 4.25	16.155
 4.30	16.725
 4.35	17.320
 4.40	17.930
 4.45	18.540
 4.50	19.175
 4.55	19.830
 4.60	20.505
 4.65	21.210
 4.70	21.925
 4.75	22.660
 4.80	23.410
 4.85	24.160
 4.90	24.935
 4.95	25.740
 5.00	26.560
 5.05	27.375
 5.10	28.215
 5.15	29.095
 5.20	29.990
 5.25	30.905
 5.30	31.830
 5.35	32.770
 5.40	33.715
 5.45	34.640
 5.50	35.580
 5.55	36.530
 5.60	37.485
 5.65	38.440
 5.70	39.395
 5.75	40.335
 5.80	41.255
 5.85	42.150
 5.90	43.035
 5.95	43.910
 6.00	44.760
 6.05	45.565
 6.10	46.345
 6.15	47.100
 6.20	47.825
 6.25	48.500
 6.30	49.130
 6.35	49.700
 6.40	50.200
 6.45	50.635
 6.50	51.000
 6.55	51.320
 6.60	51.565
 6.65	51.740
 6.70	51.845
 6.75	51.875
 6.80	51.820
 6.85	51.690
 6.90	51.470
 6.95	51.150
 7.00	50.725
 7.05	50.235
 7.10	49.680
 7.15	49.095
 7.20	48.530
 7.25	47.985
 7.30	47.465
 7.35	46.980
 7.40	46.520
 7.45	46.110
 7.50	45.710
 7.55	45.330
 7.60	44.955
 7.65	44.580
 7.70	44.195
 7.75	43.790
 7.80	43.355
 7.85	42.905
 7.90	42.420
 7.95	41.895
 8.00	41.305
 8.05	40.705
 8.10	40.050
 8.15	39.320
 8.20	38.530
 8.25	37.680
 8.30	36.775
 8.35	35.825
 8.40	34.835
 8.45	33.825
 8.50	32.760
 8.55	31.645
 8.60	30.485
 8.65	29.285
 8.70	28.040
 8.75	26.760
 8.80	25.445
 8.85	24.160
 8.90	22.860
 8.95	21.525
 9.00	20.195
 9.05	18.895
 9.10	17.600
 9.15	16.330
 9.20	15.095
 9.25	13.910
 9.30	12.790
 9.35	11.750
 9.40	10.800
 9.45	 9.950
 9.50	 9.190
 9.55	 8.500
 9.60	 7.890
 9.65	 7.365
 9.70	 6.925
 9.75	 6.575
 9.80	 6.285
 9.85	 6.070
 9.90	 5.915
 9.95	 5.815
10.00	 5.760
10.05	 5.755
10.10	 5.790
10.15	 5.860
10.20	 5.960
10.25	 6.090
10.30	 6.240
10.35	 6.410
10.40	 6.590
10.45	 6.770
10.50	 6.960
10.55	 7.150
10.60	 7.335
10.65	 7.510
10.70	 7.680
10.75	 7.835
10.80	 7.970
10.85	 8.100
10.90	 8.210
10.95	 8.310
11.00	 8.390
11.05	 8.465
11.10	 8.535
11.15	 8.600
11.20	 8.665
11.25	 8.720
11.30	 8.775
11.35	 8.820
11.40	 8.860
11.45	 8.895
11.50	 8.930
11.55	 8.975
11.60	 9.010
11.65	 9.055
11.70	 9.105
11.75	 9.155
11.80	 9.200
11.85	 9.250
11.90	 9.300
11.95	 9.355
12.00	 9.405
12.05	 9.465
12.10	 9.525
12.15	 9.585
12.20	 9.640
12.25	 9.695
12.30	 9.745
12.35	 9.795
12.40	 9.835
12.45	 9.865
12.50	 9.895
12.55	 9.915
12.60	 9.925
12.65	 9.915
12.70	 9.885
12.75	 9.835
12.80	 9.775
12.85	 9.705
12.90	 9.610
12.95	 9.490
13.00	 9.370
13.05	 9.230
13.10	 9.065
13.15	 8.885
13.20	 8.695
13.25	 8.500
13.30	 8.290
13.35	 8.070
13.40	 7.825
13.45	 7.580
13.50	 7.330
13.55	 7.070
13.60	 6.810
13.65	 6.540
13.70	 6.270
13.75	 5.995
13.80	 5.715
13.85	 5.445
13.90	 5.190
13.95	 4.930
14.00	 4.675
14.05	 4.435
14.10	 4.205
14.15	 3.980
14.20	 3.750
14.25	 3.530
14.30	 3.305
14.35	 3.075
14.40	 2.835
14.45	 2.595
14.50	 2.350
14.55	 2.090
14.60	 1.810
14.65	 1.505
14.70	 1.175
14.75	 0.820
14.80	 0.435
14.85	 0.045
14.90	-0.355
14.95	-0.805
15.00	-1.275
15.05	-1.755
15.10	-2.250
15.15	-2.775
15.20	-3.330
15.25	-3.895
15.30	-4.470
15.35	-5.055
15.40	-5.655
15.45	-6.240
15.50	-6.830
15.55	-7.440
15.60	-8.040
15.65	-8.650
15.70	-9.270
15.75	-9.875
15.80	-10.475
15.85	-11.035
15.90	-11.580
15.95	-12.105
16.00	-12.610
16.05	-13.075
16.10	-13.505
16.15	-13.905
16.20	-14.275
16.25	-14.605
16.30	-14.900
16.35	-15.155
16.40	-15.385
16.45	-15.580
16.50	-15.740
16.55	-15.875
16.60	-15.995
16.65	-16.095
16.70	-16.180
16.75	-16.250
16.80	-16.310
16.85	-16.355
16.90	-16.395
16.95	-16.425
17.00	-16.450
17.05	-16.480
17.10	-16.510
17.15	-16.535
17.20	-16.565
17.25	-16.600
17.30	-16.640
17.35	-16.695
17.40	-16.765
17.45	-16.835
17.50	-16.915
17.55	-17.000
17.60	-17.100
17.65	-17.225
17.70	-17.355
17.75	-17.505
17.80	-17.660
17.85	-17.820
17.90	-17.985
17.95	-18.165
18.00	-18.355
18.05	-18.530
18.10	-18.715
18.15	-18.910
18.20	-19.105
18.25	-19.300
18.30	-19.505
18.35	-19.705
18.40	-19.910
18.45	-20.100
18.50	-20.280
18.55	-20.470
18.60	-20.655
18.65	-20.840
18.70	-21.020
18.75	-21.195
18.80	-21.380
18.85	-21.555
18.90	-21.725
18.95	-21.895
19.00	-22.070
19.05	-22.235
19.10	-22.405
19.15	-22.575
19.20	-22.750
19.25	-22.920
19.30	-23.100
19.35	-23.280
19.40	-23.475
19.45	-23.670
19.50	-23.870
19.55	-24.080
19.60	-24.295
19.65	-24.520
19.70	-24.745
19.75	-24.985
19.80	-25.240
19.85	-25.470
19.90	-25.720
19.95	-25.970
20.00	-26.230
20.05	-26.475
20.10	-26.750
20.15	-27.020
20.20	-27.300
20.25	-27.580
20.30	-27.865
20.35	-28.145
20.40	-28.425
20.45	-28.695
20.50	-28.965
20.55	-29.230
20.60	-29.485
20.65	-29.745
20.70	-29.990
20.75	-30.230
20.80	-30.470
20.85	-30.695
20.90	-30.915
20.95	-31.130
21.00	-31.340
21.05	-31.540
21.10	-31.735
21.15	-31.945
21.20	-32.145
21.25	-32.355
21.30	-32.565
21.35	-32.785
21.40	-33.015
21.45	-33.235
21.50	-33.470
21.55	-33.710
21.60	-33.970
21.65	-34.235
21.70	-34.515
21.75	-34.795
21.80	-35.095
21.85	-35.385
21.90	-35.685
21.95	-35.990
22.00	-36.300
22.05	-36.605
22.10	-36.915
22.15	-37.235
22.20	-37.555
22.25	-37.885
22.30	-38.220
22.35	-38.555
22.40	-38.900
22.45	-39.225
22.50	-39.550
22.55	-39.870
22.60	-40.190
22.65	-40.500
22.70	-40.800
22.75	-41.100
22.80	-41.390
22.85	-41.650
22.90	-41.900
22.95	-42.135
23.00	-42.365
23.05	-42.575
23.10	-42.765
23.15	-42.955
23.20	-43.130
23.25	-43.300
23.30	-43.460
23.35	-43.620
23.40	-43.780
23.45	-43.930
23.50	-44.070
23.55	-44.205
23.60	-44.340
23.65	-44.475
23.70	-44.620
23.75	-44.760
23.80	-44.910
23.85	-45.050
23.90	-45.190
23.95	-45.340
24.00	-45.490
24.05	-45.645
24.10	-45.805
24.15	-45.975
24.20	-46.150
24.25	-46.330
24.30	-46.525
24.35	-46.720
24.40	-46.925
24.45	-47.130
24.50	-47.340
24.55	-47.560
24.60	-47.785
24.65	-48.020
24.70	-48.255
24.75	-48.495
24.80	-48.740
24.85	-48.980
24.90	-49.225

